       372      0.00   1270.40 N2       Total
Lambda = 9.9-247.2 A
   Huffman, R. E. (1969)
   Can. J. Chem. 47, 1823
Lambda = 303.8-1037.6 A
   Samson, J. A. R., Cairns, R. B. (1964)
   J. Geophys. Res. 69, 4583
Lambda = 600.-978. A  
   Cook, G. R., Metzger, P. H. (1964)
   J. Chem. Phys. 41, 321
Lambda = 798.-1000. A
   Huffman, R. E., Tanaka, Y., Larrabee, J. C. (1963)
   J. Chem. Phys. 39, 910
Lambda = 796. A
   Lofthus, A., Krupenie, P. H. (1977)
   J. Phys. Chem. Ref. Data 6, 113
   (ionization threshold)
Lambda = 1270.4 A
   Huber, K.-P., Herzberg, G. (1979)
   Molecular Spectra and Molecular Structure, Vol. 4, Van Nostrand Reinhold, New York
   (dissociation threshold)
Lambda = 972.5 A  
   Clark, K. C. (1952)
   Phys. Rev. 87, 271
   sigma = 1.45E-16
Lambda = 972.5 A
   Watanabe, K., Marmo, F. F. (1956)
   J. Chem. Phys. 25, 965
   sigma = 1.12E-17
Lambda = 972.5 A
   Itamoto, F. K., Jr., Mcallister, H. C. (1961)
   Contribution Nr. 29, Hawaii Institute of Geophysics, U. Hawaii
   sigma = 3.72E-16
Lambda = 972.5 A
   Cook, G. R., Metzger (1964)
   J. Chem. Phys. 41, 321
   sigma = 1.94E-16
Lambda = 972.5 A
   Huffman, R. E., Tanaka, Y., Larrabee, J. C. (1963)
   J. Chem. Phys. 39, 910
   sigma = 3.02E-16
Lambda = 972.5 A
   Samson, J. A. R., Cairns, R. B. (1964)
   J. Geophys. Res. 69, 4583
   sigma = 3.59E-16
Lambda = 972.5 A
   Guertler, P., Saile, V., Koch, E. E. (1977)
   Chem. Phys. Lett. 48, 245
   sigma = 3.57E-16
Lambda = 972.5 A
   Huffman, R. E. (1969)
   Can. J. Chem. 47, 1823
   sigma = 3.70E-16
Lambda = 972.5 A
   Geiger, J., Schroeder, B. (1969)
   J. Chem. Phys. 50, 7
   sigma = 1.51E-16
Lambda = 972.5 A
   Guertler, P., Saile, V., Koch, E. E. (1977)
   Chem. Phys. Lett. 48, 245
   (X singlet sigma g+ to b singlet pi u, v' = 3)
Lambda = 972.5 A
   Lofthus, A., Krupenie, P. H. (1977)
   J. Chem. Phys. Ref. Data 6, 130
   (line predissociates)

      1.00  8.00E-23
      9.90  4.20E-20
     13.40  8.90E-20
     29.00  1.40E-18
     30.00  7.00E-20
     44.60  1.80E-19
     68.00  4.50E-19
    100.00  8.50E-19
    150.00  2.40E-18
    209.30  6.50E-18
    247.20  9.80E-18
    303.80  1.20E-17
    348.00  1.60E-17
    395.00  1.85E-17
    430.00  2.10E-17
    435.00  2.37E-17
    498.00  2.42E-17
    507.50  2.43E-17
    508.20  2.23E-17
    510.40  2.30E-17
    519.60  2.58E-17
    522.20  2.36E-17
    525.80  2.62E-17
    537.00  2.52E-17
    553.30  2.49E-17
    554.10  2.53E-17
    554.50  2.46E-17
    555.30  2.48E-17
    584.30  2.31E-17
    597.80  2.34E-17
    599.60  2.34E-17
    600.00  2.74E-17
    608.40  2.34E-17
    609.80  2.60E-17
    610.80  2.33E-17
    617.00  2.37E-17
    620.00  2.90E-17
    624.60  2.40E-17
    625.10  2.39E-17
    625.80  2.40E-17
    629.70  2.42E-17
    630.00  2.92E-17
    640.00  2.94E-17
    650.00  2.94E-17
    660.00  2.79E-17
    670.00  2.21E-17
    671.40  2.38E-17
    674.10  2.16E-17
    675.10  2.57E-17
    679.70  2.16E-17
    681.90  2.90E-17
    685.00  2.43E-17
    685.70  2.49E-17
    686.30  2.41E-17
    690.90  2.08E-17
    694.90  3.54E-17
    700.00  2.38E-17
    710.00  2.53E-17
    715.30  2.31E-17
    721.30  2.68E-17
    723.40  4.91E-17
    726.00  2.57E-17
    729.50  2.96E-17
    733.00  2.62E-17
    734.80  2.66E-17
    735.90  2.20E-17
    736.80  2.31E-17
    737.40  1.75E-17
    737.80  2.27E-17
    738.40  1.71E-17
    739.70  2.43E-17
    740.50  1.56E-17
    741.40  1.60E-17
    742.60  1.53E-17
    743.70  2.83E-17
    744.70  2.53E-17
    745.50  2.77E-17
    746.50  2.53E-17
    747.00  2.12E-17
    747.60  2.53E-17
    748.40  2.08E-17
    749.30  2.79E-17
    749.60  2.64E-17
    750.80  3.24E-17
    752.00  1.57E-17
    752.50  2.08E-17
    752.90  1.94E-17
    754.30  5.17E-17
    756.50  1.56E-17
    757.30  3.57E-17
    757.70  2.27E-17
    758.50  3.24E-17
    758.70  2.39E-17
    759.40  1.16E-17
    759.50  1.56E-17
    760.30  1.98E-17
    761.10  4.01E-17
    761.50  3.87E-17
    762.00  2.78E-17
    762.70  1.28E-17
    763.30  2.73E-17
    763.60  2.90E-17
    764.40  1.35E-17
    764.50  2.31E-17
    765.00  4.69E-17
    765.10  8.54E-17
    767.00  1.14E-17
    768.50  2.90E-17
    770.50  1.02E-17
    771.50  6.33E-17
    774.00  1.04E-17
    774.50  3.40E-17
    778.50  2.68E-17
    779.90  1.28E-17
    780.00  1.49E-17
    781.00  4.47E-17
    782.50  1.45E-17
    783.50  8.56E-17
    785.20  1.51E-17
    786.20  2.98E-17
    787.70  8.41E-18
    788.00  7.44E-18
    789.50  2.94E-17
    790.20  2.27E-17
    790.50  2.07E-17
    792.00  5.17E-17
    793.50  2.05E-17
    795.00  4.24E-17
    798.00  4.70E-18
    801.00  5.51E-17
    801.50  7.33E-17
    802.20  4.17E-18
    802.30  2.75E-17
    803.70  1.30E-17
    804.00  8.19E-18
    804.50  3.35E-18
    805.00  4.84E-18
    805.80  3.54E-17
    806.00  1.66E-17
    806.30  1.51E-17
    806.50  5.21E-17
    806.60  9.53E-17
    808.00  4.43E-18
    808.80  1.49E-17
    809.00  7.44E-18
    810.00  1.56E-18
    810.50  5.21E-18
    811.50  1.86E-18
    812.50  1.82E-17
    813.50  4.84E-17
    813.70  8.26E-17
    815.00  4.84E-18
    816.00  6.25E-18
    817.50  7.80E-19
    818.60  6.81E-17
    819.00  4.24E-17
    820.10  8.56E-18
    820.30  4.35E-18
    821.00  1.22E-17
    821.20  2.08E-17
    822.50  3.80E-19
    822.60  1.12E-18
    823.30  1.49E-18
    824.50  1.19E-17
    824.90  1.38E-17
    825.20  1.49E-18
    825.70  2.46E-17
    826.00  1.67E-17
    826.40  8.19E-18
    828.00  7.56E-19
    828.50  7.37E-18
    828.60  4.84E-18
    829.30  3.35E-18
    831.50  3.01E-19
    832.00  3.61E-18
    833.00  5.50E-19
    833.50  7.26E-18
    834.10  5.58E-18
    834.50  1.94E-18
    835.00  1.84E-17
    835.10  2.64E-17
    836.50  1.09E-18
    837.40  1.64E-17
    837.50  1.64E-17
    840.00  1.97E-18
    840.80  2.16E-17
    840.90  3.01E-17
    841.50  1.30E-17
    842.00  2.23E-17
    842.20  2.94E-17
    842.90  1.19E-17
    843.50  1.12E-18
    844.10  2.94E-17
    844.20  2.12E-17
    846.20  7.44E-19
    846.90  5.51E-18
    847.00  2.98E-18
    848.20  4.09E-19
    849.70  1.97E-17
    850.00  2.85E-17
    850.10  3.72E-17
    852.50  1.15E-18
    852.80  2.68E-18
    853.50  3.35E-17
    853.70  4.76E-17
    855.00  1.86E-18
    856.20  1.86E-17
    856.30  2.46E-17
    856.70  1.51E-18
    857.10  2.20E-17
    857.20  2.46E-17
    859.00  3.31E-18
    859.70  1.60E-18
    859.80  5.54E-19
    860.00  3.80E-19
    860.80  8.84E-18
    861.30  4.54E-19
    862.00  5.81E-18
    862.50  6.90E-19
    863.30  7.44E-18
    863.50  9.30E-18
    864.20  5.99E-19
    865.00  1.67E-17
    865.40  2.87E-17
    866.10  6.07E-19
    866.50  2.34E-18
    866.80  2.20E-17
    867.00  3.80E-17
    868.10  1.97E-17
    870.00  5.29E-19
    870.90  2.27E-17
    871.50  3.13E-17
    871.70  4.09E-17
    873.20  2.62E-18
    874.20  4.54E-19
    875.00  2.75E-19
    875.50  1.12E-17
    876.20  4.17E-17
    876.50  2.64E-17
    877.40  1.34E-17
    878.30  5.62E-18
    879.00  1.82E-18
    879.20  5.58E-18
    879.60  6.70E-18
    880.20  5.62E-19
    881.00  4.47E-17
    881.10  4.17E-17
    882.00  8.19E-18
    882.60  1.49E-17
    882.70  2.16E-17
    883.90  7.44E-18
    885.00  3.57E-19
    885.80  9.23E-18
    886.00  2.20E-17
    886.30  1.94E-17
    886.40  7.52E-18
    886.90  2.53E-17
    887.00  1.67E-17
    888.30  4.84E-19
    888.90  1.08E-17
    889.20  9.27E-18
    890.50  4.17E-19
    891.10  8.56E-18
    892.20  1.23E-17
    893.00  1.90E-18
    893.20  4.32E-19
    894.00  9.60E-18
    895.50  4.39E-19
    896.20  1.38E-17
    897.20  3.30E-17
    898.30  5.17E-18
    899.00  9.30E-18
    899.30  1.30E-17
    899.80  8.93E-18
    900.50  5.43E-19
    900.80  1.90E-18
    901.20  9.68E-18
    901.30  1.19E-17
    902.30  5.66E-19
    902.50  1.34E-17
    903.00  1.11E-17
    903.60  1.67E-17
    904.00  5.81E-19
    904.70  1.67E-17
    905.00  1.00E-17
    907.00  6.18E-19
    907.60  8.93E-18
    908.00  7.44E-18
    909.70  1.15E-18
    910.00  6.14E-19
    910.60  1.34E-17
    910.80  5.58E-18
    911.80  2.23E-18
    912.00  7.63E-19
    912.60  3.57E-17
    912.70  6.92E-17
    916.00  1.90E-19
    916.40  1.97E-17
    917.70  1.11E-17
    919.20  1.08E-18
    919.30  4.21E-19
    920.00  2.81E-17
    921.30  9.30E-18
    922.00  1.30E-18
    922.80  2.23E-17
    923.00  1.11E-17
    925.00  6.48E-19
    926.10  8.56E-18
    927.00  4.47E-18
    927.70  2.61E-19
    928.20  7.82E-19
    928.70  3.35E-17
    929.00  7.37E-17
    931.50  5.95E-19
    931.90  4.47E-18
    932.50  3.72E-18
    934.30  5.58E-20
    934.50  5.21E-19
    935.00  3.65E-18
    935.30  3.35E-18
    937.00  5.21E-20
    937.90  1.08E-17
    938.50  6.70E-17
    938.80  9.16E-17
    939.90  3.01E-17
    940.50  3.80E-19
    942.50  1.90E-17
    945.50  8.20E-19
    946.20  4.84E-18
    946.70  5.58E-18
    947.50  5.58E-19
    948.00  7.63E-20
    949.20  6.10E-18
    950.00  5.77E-20
    950.20  3.72E-19
    951.20  4.76E-20
    952.00  1.04E-19
    953.00  2.08E-19
    954.00  7.44E-20
    954.50  4.17E-20
    955.10  1.60E-17
    955.50  1.86E-18
    957.00  1.08E-18
    958.00  1.86E-17
    958.20  4.17E-17
    958.80  3.01E-17
    959.30  9.49E-20
    960.00  2.94E-17
    960.30  7.07E-17
    963.50  1.60E-19
    965.00  1.34E-18
    965.50  4.84E-17
    965.80  1.00E-16
    970.00  5.21E-19
    972.50  2.51E-16
    976.00  9.49E-20
    977.00  6.89E-20
    978.00  5.47E-17
    979.10  8.37E-17
    985.70  1.60E-17
    987.50  2.98E-18
    989.80  1.67E-19
    991.50  7.44E-20
    991.90  1.79E-17
    997.00  1.86E-19
   1000.00  3.72E-19
   1008.00  6.00E-20
   1025.70  1.00E-21
   1031.90  7.00E-22
   1037.60  7.00E-22
   1038.00  1.00E-35
   1270.40  1.00E-35
  2
       109      0.00   1270.40 N2       N/N       8 26
Lambda = 522.2-790.2 A
   Huffman, R. E. (1969)
   Can. J. Chem. 47, 1823
   (branching ratio for dissociation and ionization)
Lambda = 303.8-790.1 A
   Samson, J. A. R., Cairns, R. B. (1964)
   J. Geophys. Res. 69, 4583
   (branching ratio for dissociation and ionization)
Lambda = 600.-795. A
   Cook, G. R., Metzger (1964)
   J. Chem. Phys. 41, 321
   (branching ratio for dissociation and ionization)

      1.00  0.00E 00
    519.00  0.00E 00
    519.60  2.00E-02
    522.20  3.50E-02
    525.80  2.00E-02
    537.00  3.50E-02
    553.30  4.00E-02
    554.10  5.50E-02
    554.50  7.50E-02
    555.30  4.50E-02
    584.30  5.00E-03
    597.80  3.00E-02
    599.60  4.60E-02
    608.40  5.00E-03
    609.80  5.00E-03
    610.80  1.00E-02
    617.00  2.00E-02
    624.60  3.00E-02
    625.00  4.20E-02
    625.10  3.00E-02
    625.80  2.00E-02
    629.70  3.00E-02
    671.40  1.88E-01
    674.10  1.55E-01
    675.10  2.10E-01
    679.70  1.88E-01
    681.90  1.79E-01
    685.00  4.50E-02
    685.50  4.50E-02
    685.80  3.80E-02
    686.30  4.50E-02
    690.90  1.61E-01
    694.90  1.58E-01
    700.00  2.34E-01
    715.30  2.50E-01
    721.30  2.85E-01
    723.40  1.67E-01
    726.00  2.46E-01
    729.50  2.89E-01
    733.00  2.84E-01
    734.80  2.24E-01
    735.90  1.53E-01
    736.80  8.06E-02
    737.40  6.38E-02
    737.80  8.20E-02
    738.40  2.17E-02
    739.70  2.54E-01
    740.50  1.67E-01
    741.40  4.65E-02
    742.60  1.95E-01
    743.70  1.05E-01
    744.70  4.12E-01
    745.50  1.86E-01
    746.50  5.29E-01
    747.00  3.51E-01
    747.60  2.06E-01
    748.40  1.61E-01
    749.30  5.20E-01
    749.60  3.94E-01
    750.80  6.90E-01
    752.00  2.64E-01
    752.50  3.75E-01
    752.90  4.04E-01
    754.30  3.24E-01
    756.50  3.33E-01
    757.30  5.42E-01
    757.70  4.26E-01
    758.50  3.10E-01
    758.70  2.50E-01
    759.40  1.40E-01
    759.50  3.10E-01
    760.30  4.30E-01
    761.10  4.50E-01
    761.50  5.29E-01
    762.00  5.40E-01
    762.70  4.06E-01
    763.30  2.00E-01
    763.60  2.05E-01
    764.40  3.10E-01
    764.50  3.71E-01
    765.00  2.54E-01
    765.10  2.30E-01
    767.00  1.21E-01
    768.50  4.00E-01
    770.50  2.25E-01
    771.50  5.59E-01
    774.00  2.75E-01
    774.50  6.00E-01
    776.00  3.76E-01
    777.50  2.62E-01
    778.50  5.14E-01
    779.90  3.50E-01
    780.00  4.93E-01
    781.00  1.92E-01
    782.50  3.46E-01
    783.50  5.48E-01
    785.20  4.20E-01
    786.20  4.44E-01
    787.70  1.10E-01
    788.00  2.99E-01
    789.50  5.06E-01
    790.10  6.50E-01
    790.20  5.45E-01
    790.50  4.20E-01
    792.00  2.81E-01
    793.50  7.93E-01
    795.00  8.68E-01
    796.00  1.00E 00
   1270.40  1.00E 00
         9      0.00    510.40 N2       N+N       4 40
Lambda = 304.-510.4 A
   Kronebusch, P. L., Berkowitz, J. (1976)
   Int. J. Mass Spectr. Ion Phys. 22, 283
   (branching ratio for ionization and dissociative ionization)

      1.00  5.00E-01
    304.00  3.60E-02
    379.00  2.30E-02
    405.00  2.50E-02
    446.00  1.66E-02
    460.00  1.78E-02
    490.00  2.35E-03
    510.40  0.00E 00
   1270.40  0.00E 00
         0      0.00    796.00 N2       N2+      18  2
***
